wl(nm)         Venusian sflux_top(erg cm-2 s-1 nm-1)   # at 112 km
9.600E+01 0.000E+00
9.725E+01 0.000E+00
9.770E+01 0.000E+00
9.800E+01 0.000E+00
9.910E+01 0.000E+00
1.000E+02 0.000E+00
1.020E+02 0.000E+00
1.026E+02 0.000E+00
1.035E+02 0.000E+00
1.060E+02 0.000E+00
1.110E+02 0.000E+00
1.155E+02 2.039E-07
1.190E+02 3.171E-03
1.210E+02 1.936E-02
1.216E+02 8.815E-01
1.250E+02 1.619E-04
1.300E+02 2.337E-08
1.350E+02 8.826E-09
1.400E+02 2.202E-07
1.450E+02 1.627E-07
1.500E+02 1.070E-06
1.550E+02 5.836E-05
1.600E+02 2.075E-03
1.650E+02 4.019E-02
1.700E+02 2.414E-01
1.750E+02 7.980E-01
1.800E+02 1.658E+00
1.850E+02 1.847E+00
1.900E+02 3.440E+00
1.950E+02 5.079E+00
2.000E+02 6.808E+00
2.050E+02 9.802E+00
2.100E+02 2.212E+01
2.150E+02 3.267E+01
2.200E+02 4.152E+01
2.250E+02 5.135E+01
2.300E+02 5.006E+01
2.350E+02 4.401E+01
2.400E+02 4.862E+01
2.450E+02 5.830E+01
2.500E+02 5.042E+01
2.550E+02 4.912E+01
2.575E+02 1.716E+02
2.625E+02 1.450E+02
2.675E+02 2.510E+02
2.725E+02 2.034E+02
2.775E+02 1.843E+02
2.825E+02 2.391E+02
2.875E+02 3.529E+02
2.925E+02 5.563E+02
2.975E+02 5.091E+02
3.025E+02 5.122E+02
3.075E+02 5.408E+02
3.125E+02 6.273E+02
3.175E+02 6.410E+02
3.225E+02 7.221E+02
3.275E+02 9.665E+02
3.325E+02 9.848E+02
3.375E+02 9.899E+02
3.425E+02 9.914E+02
3.475E+02 9.637E+02
3.525E+02 9.888E+02
3.575E+02 9.498E+02
3.625E+02 1.021E+03
3.675E+02 1.148E+03
3.725E+02 1.080E+03
3.775E+02 1.077E+03
3.825E+02 1.022E+03
3.875E+02 1.049E+03
3.925E+02 1.056E+03
3.975E+02 1.287E+03
4.025E+02 1.650E+03
4.100E+02 2.338E+03
4.200E+02 1.786E+03
4.300E+02 1.622E+03
4.400E+02 1.820E+03
4.500E+02 2.001E+03
4.600E+02 2.013E+03
4.700E+02 1.991E+03
4.800E+02 1.982E+03
4.900E+02 1.906E+03
5.000E+02 1.903E+03
5.100E+02 1.870E+03
5.200E+02 1.789E+03
5.300E+02 1.850E+03
5.400E+02 1.816E+03
5.500E+02 1.804E+03
5.600E+02 1.765E+03
5.700E+02 1.782E+03
5.800E+02 1.806E+03
5.900E+02 1.762E+03
6.000E+02 1.733E+03
6.100E+02 1.698E+03
6.200E+02 1.645E+03
6.300E+02 1.625E+03
6.400E+02 1.600E+03
6.500E+02 1.530E+03
6.600E+02 1.516E+03
6.700E+02 1.525E+03
6.800E+02 1.500E+03
6.900E+02 1.447E+03
7.000E+02 1.435E+03
7.100E+02 1.379E+03
7.200E+02 1.338E+03
7.300E+02 1.315E+03
7.400E+02 1.271E+03
7.500E+02 1.254E+03
7.600E+02 1.222E+03
7.700E+02 1.178E+03
7.800E+02 1.165E+03
7.900E+02 1.141E+03
8.000E+02 1.112E+03
